{
  "resourceType": "Bundle",
  "id": "A-D2-HCP1-C1",
  "meta": {
    "profile": [
      "http://fhir.ch/ig/ch-vacd/StructureDefinition/ch-vacd-document-immunization-administration"
    ]
  },
  "identifier": {
    "system": "urn:ietf:rfc:3986",
    "value": "urn:uuid:bef441e1-58b1-48e3-aa51-61237a3c20cd"
  },
  "type": "document",
  "timestamp": "2021-06-15T00:00:00.390+02:00",
  "entry": [
    {
      "fullUrl": "http://test.fhir.ch/r4/Composition/A-D2-HCP1-C1-Composition",
      "resource": {
        "resourceType": "Composition",
        "id": "A-D2-HCP1-C1-Composition",
        "meta": {
          "profile": [
            "http://fhir.ch/ig/ch-vacd/StructureDefinition/ch-vacd-composition-immunization-administration"
          ]
        },
        "language": "en-US",
        "text": {
          "status": "generated",
          "div": "<div xmlns=\"http://www.w3.org/1999/xhtml\" xml:lang=\"en-US\" lang=\"en-US\"><h3>Immunization Administration</h3><p><b>Id: </b>A-D2-HCP1-C1-Composition</p><p><b>Identifier: </b><span>urn:ietf:rfc:3986#urn:uuid:ab0add6e-0049-4567-8609-8d3ffdd84af0</span></p><p><b>Status: </b>Final</p><p><b>Code: </b><span>Immunization record (http://snomed.info/sct#41000179103)</span></p><p><b>Patient: </b><a href=\"Patient-TC-patient.html\">Patient/TC-patient</a> Wegmueller Monika</p><p><b>Date: </b>June 15, 2021</p><p><b>Authors:</b></p><table><tr><td><p><a href=\"Practitioner-TC-HCP1-C1.html\">Practitioner/TC-HCP1-C1</a> Bereit Allzeit</p><p><a href=\"Organization-TC-ORG1.html\">Organization/TC-ORG1</a> Gruppenpraxis CH</p></td></tr></table><p><b>Confidentiality: </b>null<span> Normal (http://snomed.info/sct#17621005)</span></p><p><b>Sections:</b></p><table><tr><td>Immunization Administration</td></tr></table></div>"
        },
        "extension": [
          {
            "id": "versionNumber",
            "url": "http://fhir.ch/ig/ch-core/StructureDefinition/ch-ext-epr-versionnumber",
            "valueUnsignedInt": 1
          }
        ],
        "identifier": {
          "system": "urn:ietf:rfc:3986",
          "value": "urn:uuid:ab0add6e-0049-4567-8609-8d3ffdd84af0"
        },
        "status": "final",
        "type": {
          "coding": [
            {
              "system": "http://snomed.info/sct",
              "code": "41000179103",
              "display": "Immunization record"
            }
          ]
        },
        "subject": {
          "reference": "Patient/TC-patient"
        },
        "date": "2021-06-15T00:00:00+02:00",
        "author": [
          {
            "reference": "PractitionerRole/TC-HCP1-ORG1-ROLE-author"
          }
        ],
        "title": "Immunization Administration",
        "confidentiality": "N",
        "_confidentiality": {
          "extension": [
            {
              "url": "http://fhir.ch/ig/ch-core/StructureDefinition/ch-ext-epr-confidentialitycode",
              "valueCodeableConcept": {
                "coding": [
                  {
                    "system": "http://snomed.info/sct",
                    "code": "17621005",
                    "display": "Normal"
                  }
                ]
              }
            }
          ]
        },
        "custodian": {
          "reference": "Organization/TC-ORG1"
        },
        "section": [
          {
            "id": "administration",
            "title": "Immunization Administration",
            "code": {
              "coding": [
                {
                  "system": "http://loinc.org",
                  "code": "11369-6",
                  "display": "Hx of Immunization"
                }
              ]
            },
            "text": {
              "status": "generated",
              "div": "<div xmlns=\"http://www.w3.org/1999/xhtml\" xml:lang=\"en-US\" lang=\"en-US\"><p><b>Code: </b><span>Hx of Immunization (http://loinc.org#11369-6)</span></p><p><b>Entries:</b></p><table><tr><td><a href=\"Immunization-TCA01-IMMUN2-HCP1-ORG1-ROLE.html\">Immunization/TCA01-IMMUN2-HCP1-ORG1-ROLE</a></td></tr></table></div>"
            },
            "entry": [
              {
                "reference": "Immunization/TCA01-IMMUN2-HCP1-ORG1-ROLE"
              }
            ]
          }
        ]
      }
    },
    {
      "fullUrl": "http://test.fhir.ch/r4/Patient/TC-patient",
      "resource": {
        "resourceType": "Patient",
        "id": "TC-patient",
        "meta": {
          "profile": [
            "http://fhir.ch/ig/ch-core/StructureDefinition/ch-core-patient-epr"
          ]
        },
        "text": {
          "status": "generated",
          "div": "<div xmlns=\"http://www.w3.org/1999/xhtml\"><p><b>Generated Narrative: Patient</b></p><div style=\"display: inline-block; background-color: #d9e0e7; padding: 6px; margin: 4px; border: 1px solid #8da1b4; border-radius: 5px; line-height: 60%\"><p style=\"margin-bottom: 0px\">Resource Patient \"TC-patient\" </p><p style=\"margin-bottom: 0px\">Profile: <a href=\"http://fhir.ch/ig/ch-core/2.1.0/StructureDefinition-ch-core-patient-epr.html\">CH Core Patient EPR</a></p></div><p><b>identifier</b>: Medical record number: 12345678</p><p><b>name</b>: Monika Wegmueller </p><p><b>telecom</b>: ph: tel:+41.32.685.12.34(HOME)</p><p><b>gender</b>: female</p><p><b>birthDate</b>: 1967-02-10</p><p><b>address</b>: Leidensweg 10 Specimendorf 9876 CH </p></div>"
        },
        "identifier": [
          {
            "type": {
              "coding": [
                {
                  "system": "http://terminology.hl7.org/CodeSystem/v2-0203",
                  "code": "MR"
                }
              ]
            },
            "system": "urn:oid:1.2.3.4",
            "value": "12345678"
          }
        ],
        "name": [
          {
            "family": "Wegmueller",
            "given": [
              "Monika"
            ]
          }
        ],
        "telecom": [
          {
            "system": "phone",
            "value": "tel:+41.32.685.12.34",
            "use": "home"
          }
        ],
        "gender": "female",
        "birthDate": "1967-02-10",
        "address": [
          {
            "type": "both",
            "line": [
              "Leidensweg 10"
            ],
            "city": "Specimendorf",
            "postalCode": "9876",
            "country": "CH"
          }
        ]
      }
    },
    {
      "fullUrl": "http://test.fhir.ch/r4/Practitioner/TC-HCP1-C1",
      "resource": {
        "resourceType": "Practitioner",
        "id": "TC-HCP1-C1",
        "meta": {
          "profile": [
            "http://fhir.ch/ig/ch-core/StructureDefinition/ch-core-practitioner-epr"
          ]
        },
        "text": {
          "status": "generated",
          "div": "<div xmlns=\"http://www.w3.org/1999/xhtml\"><p><b>Generated Narrative: Practitioner</b></p><div style=\"display: inline-block; background-color: #d9e0e7; padding: 6px; margin: 4px; border: 1px solid #8da1b4; border-radius: 5px; line-height: 60%\"><p style=\"margin-bottom: 0px\">Resource Practitioner \"TC-HCP1-C1\" </p><p style=\"margin-bottom: 0px\">Profile: <a href=\"http://fhir.ch/ig/ch-core/2.1.0/StructureDefinition-ch-core-practitioner-epr.html\">CH Core Practitioner EPR</a></p></div><p><b>identifier</b>: id: 7601888888884</p><p><b>active</b>: true</p><p><b>name</b>: Peter Müller </p><p><b>telecom</b>: ph: tel:+41.32.234.55.66(WORK), fax: fax:+41.32.234.55.67(WORK), <a href=\"mailto:mailto:allzeit.bereit@gruppenpraxis.ch\">mailto:allzeit.bereit@gruppenpraxis.ch</a>, <a href=\"http://www.gruppenpraxis.ch\">http://www.gruppenpraxis.ch</a></p><p><b>address</b>: Grabenstrasse 2 Zürich 8005 CH </p></div>"
        },
        "identifier": [
          {
            "system": "urn:oid:2.51.1.3",
            "value": "7601888888884"
          }
        ],
        "active": true,
        "name": [
          {
            "family": "Müller",
            "given": [
              "Peter"
            ],
            "prefix": [
              "Dr. med."
            ]
          }
        ],
        "telecom": [
          {
            "system": "phone",
            "value": "tel:+41.32.234.55.66",
            "use": "work"
          },
          {
            "system": "fax",
            "value": "fax:+41.32.234.55.67",
            "use": "work"
          },
          {
            "system": "email",
            "value": "mailto:allzeit.bereit@gruppenpraxis.ch",
            "use": "work"
          },
          {
            "system": "url",
            "value": "http://www.gruppenpraxis.ch",
            "use": "work"
          }
        ],
        "address": [
          {
            "type": "physical",
            "line": [
              "Grabenstrasse 2"
            ],
            "city": "Zürich",
            "postalCode": "8005",
            "country": "CH"
          }
        ]
      }
    },
    {
      "fullUrl": "http://test.fhir.ch/r4/Organization/TC-ORG1",
      "resource": {
        "resourceType": "Organization",
        "id": "TC-ORG1",
        "meta": {
          "profile": [
            "http://fhir.ch/ig/ch-core/StructureDefinition/ch-core-organization-epr"
          ]
        },
        "text": {
          "status": "generated",
          "div": "<div xmlns=\"http://www.w3.org/1999/xhtml\"><p><b>Generated Narrative: Organization</b></p><div style=\"display: inline-block; background-color: #d9e0e7; padding: 6px; margin: 4px; border: 1px solid #8da1b4; border-radius: 5px; line-height: 60%\"><p style=\"margin-bottom: 0px\">Resource Organization \"TC-ORG1\" </p><p style=\"margin-bottom: 0px\">Profile: <a href=\"http://fhir.ch/ig/ch-core/2.1.0/StructureDefinition-ch-core-organization-epr.html\">CH Core Organization EPR</a></p></div><p><b>identifier</b>: id: 7601777777718</p><p><b>name</b>: Gruppenpraxis Müller</p><p><b>telecom</b>: ph: tel:+41.32.234.55.66(WORK), fax: fax:+41.32.234.55.67(WORK), <a href=\"mailto:mailto:bereit@gruppenpraxis.ch\">mailto:bereit@gruppenpraxis.ch</a>, <a href=\"http://www.gruppenpraxis.ch\">http://www.gruppenpraxis.ch</a></p><p><b>address</b>: Grabenstrasse 2 Zürich ZH 8005 CH </p></div>"
        },
        "identifier": [
          {
            "system": "urn:oid:2.51.1.3",
            "value": "7601777777718"
          }
        ],
        "name": "Gruppenpraxis Müller",
        "telecom": [
          {
            "system": "phone",
            "value": "tel:+41.32.234.55.66",
            "use": "work"
          },
          {
            "system": "fax",
            "value": "fax:+41.32.234.55.67",
            "use": "work"
          },
          {
            "system": "email",
            "value": "mailto:bereit@gruppenpraxis.ch",
            "use": "work"
          },
          {
            "system": "url",
            "value": "http://www.gruppenpraxis.ch",
            "use": "work"
          }
        ],
        "address": [
          {
            "line": [
              "Grabenstrasse 2"
            ],
            "city": "Zürich",
            "state": "ZH",
            "postalCode": "8005",
            "country": "CH"
          }
        ]
      }
    },
    {
      "fullUrl": "http://test.fhir.ch/r4/PractitionerRole/TC-HCP1-ORG1-ROLE-performer",
      "resource": {
        "resourceType": "PractitionerRole",
        "id": "TC-HCP1-ORG1-ROLE-performer",
        "meta": {
          "profile": [
            "http://fhir.ch/ig/ch-core/StructureDefinition/ch-core-practitionerrole-epr"
          ]
        },
        "text": {
          "status": "generated",
          "div": "<div xmlns=\"http://www.w3.org/1999/xhtml\"><p><b>Generated Narrative: PractitionerRole</b></p><div style=\"display: inline-block; background-color: #d9e0e7; padding: 6px; margin: 4px; border: 1px solid #8da1b4; border-radius: 5px; line-height: 60%\"><p style=\"margin-bottom: 0px\">Resource PractitionerRole \"TC-HCP1-ORG1-ROLE-performer\" </p><p style=\"margin-bottom: 0px\">Profile: <a href=\"http://fhir.ch/ig/ch-core/2.1.0/StructureDefinition-ch-core-practitionerrole-epr.html\">CH Core PractitionerRole EPR</a></p></div><p><b>active</b>: true</p><p><b>practitioner</b>: <a href=\"#Practitioner_TC-HCP1-C1\">See above (Practitioner/TC-HCP1-C1)</a></p><p><b>organization</b>: <a href=\"#Organization_TC-ORG1\">See above (Organization/TC-ORG1)</a></p></div>"
        },
        "active": true,
        "practitioner": {
          "reference": "Practitioner/TC-HCP1-C1"
        },
        "organization": {
          "reference": "Organization/TC-ORG1"
        }
      }
    },
    {
      "fullUrl": "http://test.fhir.ch/r4/PractitionerRole/TC-HCP1-ORG1-ROLE-author",
      "resource": {
        "resourceType": "PractitionerRole",
        "id": "TC-HCP1-ORG1-ROLE-author",
        "meta": {
          "profile": [
            "http://fhir.ch/ig/ch-core/StructureDefinition/ch-core-practitionerrole-epr"
          ]
        },
        "text": {
          "status": "generated",
          "div": "<div xmlns=\"http://www.w3.org/1999/xhtml\"><p><b>Generated Narrative: PractitionerRole</b></p><div style=\"display: inline-block; background-color: #d9e0e7; padding: 6px; margin: 4px; border: 1px solid #8da1b4; border-radius: 5px; line-height: 60%\"><p style=\"margin-bottom: 0px\">Resource PractitionerRole \"TC-HCP1-ORG1-ROLE-author\" </p><p style=\"margin-bottom: 0px\">Profile: <a href=\"http://fhir.ch/ig/ch-core/2.1.0/StructureDefinition-ch-core-practitionerrole-epr.html\">CH Core PractitionerRole EPR</a></p></div><p><b>active</b>: true</p><p><b>practitioner</b>: <a href=\"#Practitioner_TC-HCP1-C1\">See above (Practitioner/TC-HCP1-C1)</a></p><p><b>organization</b>: <a href=\"#Organization_TC-ORG1\">See above (Organization/TC-ORG1)</a></p></div>"
        },
        "active": true,
        "practitioner": {
          "reference": "Practitioner/TC-HCP1-C1"
        },
        "organization": {
          "reference": "Organization/TC-ORG1"
        }
      }
    },
    {
      "fullUrl": "http://test.fhir.ch/r4/Immunization/TCA01-IMMUN2-HCP1-ORG1-ROLE",
      "resource": {
        "resourceType": "Immunization",
        "id": "TCA01-IMMUN2-HCP1-ORG1-ROLE",
        "meta": {
          "profile": [
            "http://fhir.ch/ig/ch-vacd/StructureDefinition/ch-vacd-immunization"
          ]
        },
        "text": {
          "status": "extensions",
          "div": "<div xmlns=\"http://www.w3.org/1999/xhtml\"><p><b>Generated Narrative: Immunization</b></p><div style=\"display: inline-block; background-color: #d9e0e7; padding: 6px; margin: 4px; border: 1px solid #8da1b4; border-radius: 5px; line-height: 60%\"><p style=\"margin-bottom: 0px\">Resource Immunization \"TCA01-IMMUN2-HCP1-ORG1-ROLE\" </p><p style=\"margin-bottom: 0px\">Profile: <a href=\"StructureDefinition-ch-vacd-immunization.html\">CH VACD Immunization</a></p></div><p><b>CH VACD Extension Immunization Recorder Reference</b>: <a href=\"#PractitionerRole_TC-HCP1-ORG1-ROLE-author\">See above (PractitionerRole/TC-HCP1-ORG1-ROLE-author)</a></p><p><b>identifier</b>: id: 11853642-8ff4-45ae-af98-44c58b3bf0b7</p><p><b>status</b>: completed</p><p><b>vaccineCode</b>: Boostrix <span style=\"background: LightGoldenRodYellow; margin: 4px; border: 1px solid khaki\"> (<a href=\"CodeSystem-ch-vacd-swissmedic-cs.html\">Swiss Medic Authorized Vaccines Codesystem</a>#637)</span></p><p><b>patient</b>: <a href=\"#Patient_TC-patient\">See above (Patient/TC-patient)</a></p><p><b>occurrence</b>: 2021-06-15</p><p><b>recorded</b>: 2021-06-20 12:00:00+0200</p><p><b>lotNumber</b>: 14-34218</p><p><b>route</b>: Intramuscular use <span style=\"background: LightGoldenRodYellow; margin: 4px; border: 1px solid khaki\"> (standardterms.edqm.eu#20035000)</span></p><h3>Performers</h3><table class=\"grid\"><tr><td>-</td><td><b>Actor</b></td></tr><tr><td>*</td><td><a href=\"#PractitionerRole_TC-HCP1-ORG1-ROLE-performer\">See above (PractitionerRole/TC-HCP1-ORG1-ROLE-performer)</a></td></tr></table><p><b>note</b>: Der Patient hatte an mehreren nachfolgenden Tagen eine sehr empfindliche und leicht gerötete Haut rund um die Einstichstelle. (By Practitioner/TC-HCP1-C1 @2021-06-20)</p><h3>ProtocolApplieds</h3><table class=\"grid\"><tr><td>-</td><td><b>TargetDisease</b></td><td><b>DoseNumber[x]</b></td></tr><tr><td>*</td><td>Diphtheria caused by Corynebacterium diphtheriae (disorder) <span style=\"background: LightGoldenRodYellow; margin: 4px; border: 1px solid khaki\"> (<a href=\"https://browser.ihtsdotools.org/\">SNOMED CT</a>#397430003)</span>, Tetanus (disorder) <span style=\"background: LightGoldenRodYellow; margin: 4px; border: 1px solid khaki\"> (<a href=\"https://browser.ihtsdotools.org/\">SNOMED CT</a>#76902006)</span>, Pertussis (disorder) <span style=\"background: LightGoldenRodYellow; margin: 4px; border: 1px solid khaki\"> (<a href=\"https://browser.ihtsdotools.org/\">SNOMED CT</a>#27836007)</span></td><td>1</td></tr></table></div>"
        },
        "extension": [
          {
            "url": "http://fhir.ch/ig/ch-vacd/StructureDefinition/ch-vacd-ext-immunization-recorder-reference",
            "valueReference": {
              "reference": "PractitionerRole/TC-HCP1-ORG1-ROLE-author"
            }
          }
        ],
        "identifier": [
          {
            "system": "urn:oid:2.16.756.5.30.1.402.1.3.1.1.1",
            "value": "11853642-8ff4-45ae-af98-44c58b3bf0b7"
          }
        ],
        "status": "completed",
        "vaccineCode": {
          "coding": [
            {
              "system": "http://fhir.ch/ig/ch-vacd/CodeSystem/ch-vacd-swissmedic-cs",
              "code": "637",
              "display": "Boostrix"
            }
          ]
        },
        "patient": {
          "reference": "Patient/TC-patient"
        },
        "occurrenceDateTime": "2021-06-15",
        "recorded": "2021-06-20T00:00:00.390+02:00",
        "lotNumber": "14-34218",
        "route": {
          "coding": [
            {
              "system": "http://standardterms.edqm.eu",
              "code": "20035000",
              "display": "Intramuscular use"
            }
          ]
        },
        "performer": [
          {
            "actor": {
              "reference": "PractitionerRole/TC-HCP1-ORG1-ROLE-performer"
            }
          }
        ],
        "note": [
          {
            "authorReference": {
              "reference": "Practitioner/TC-HCP1-C1"
            },
            "time": "2021-06-20",
            "text": "Der Patient hatte an mehreren nachfolgenden Tagen eine sehr empfindliche und leicht gerötete Haut rund um die Einstichstelle."
          }
        ],
        "protocolApplied": [
          {
            "targetDisease": [
              {
                "coding": [
                  {
                    "system": "http://snomed.info/sct",
                    "code": "397430003",
                    "display": "Diphtheria caused by Corynebacterium diphtheriae (disorder)"
                  }
                ]
              },
              {
                "coding": [
                  {
                    "system": "http://snomed.info/sct",
                    "code": "76902006",
                    "display": "Tetanus (disorder)"
                  }
                ]
              },
              {
                "coding": [
                  {
                    "system": "http://snomed.info/sct",
                    "code": "27836007",
                    "display": "Pertussis (disorder)"
                  }
                ]
              }
            ],
            "doseNumberPositiveInt": 1
          }
        ]
      }
    }
  ]
}