{
  "resourceType": "Bundle",
  "id": "A-D4-HCP2-C2",
  "meta": {
    "profile": [
      "http://fhir.ch/ig/ch-vacd/StructureDefinition/ch-vacd-document-immunization-administration"
    ]
  },
  "identifier": {
    "system": "urn:ietf:rfc:3986",
    "value": "urn:uuid:fee18799-eb66-41b2-a98f-72ff2e374147"
  },
  "type": "document",
  "timestamp": "2021-08-20T00:00:00.390+02:00",
  "entry": [

    {
      "fullUrl": "http://test.fhir.ch/r4/Composition/A-D4-HCP2-C2-Composition",
      "resource": {
        "resourceType": "Composition",
        "id": "A-D4-HCP2-C2-Composition",
        "meta": {
          "profile": [
            "http://fhir.ch/ig/ch-vacd/StructureDefinition/ch-vacd-composition-immunization-administration"
          ]
        },
        "extension": [
          {
            "id": "versionNumber",
            "url": "http://fhir.ch/ig/ch-core/StructureDefinition/ch-ext-epr-versionnumber",
            "valueUnsignedInt": 1
          }
        ],
        "identifier": {
          "system": "urn:ietf:rfc:3986",
          "value": "urn:uuid:9686dae0-448c-49f8-9c78-2db1aa95b921"
        },
        "status": "final",
        "type": {
          "coding": [
            {
              "system": "http://snomed.info/sct",
              "code": "41000179103",
              "display": "Immunization record"
            }
          ]
        },
        "subject": {
          "reference": "Patient/TC-patient"
        },
        "date": "2021-08-20T00:00:00.390+02:00",
        "author": [
          {
            "reference": "PractitionerRole/TC-HCP2-ORG2-ROLE-author"
          }
        ],
        "title": "Immunization Administration",
        "confidentiality": "N",
        "_confidentiality": {
          "extension": [
            {
              "url": "http://fhir.ch/ig/ch-core/StructureDefinition/ch-ext-epr-confidentialitycode",
              "valueCodeableConcept": {
                "coding": [
                  {
                    "system": "http://snomed.info/sct",
                    "code": "17621005",
                    "display": "Normal (qualifier value)"
                  }
                ]
              }
            }
          ]
        },
        "custodian": {
          "reference": "Organization/TC-ORG2"
        },

        "section": [

          {
            "id": "administration",
            "title": "Immunization Administration",
            "code": {
              "coding": [
                {
                  "system": "http://loinc.org",
                  "code": "11369-6",
                  "display": "Hx of Immunization"
                }
              ]
            },
            "entry": [
              {
                "reference": "Immunization/TCA02-IMMUN4-HCP2-ORG2-ROLE"
              }
            ]
          },

          {
            "id": "Annotation",
            "title": "Comments",
            "code": {
              "coding": [
                {
                  "system": "http://loinc.org",
                  "code": "48767-8",
                  "display": "Annotation comment Imp"
                }
              ]
            }
          }

        ]

      }
    },

    {
      "fullUrl": "http://test.fhir.ch/r4/Patient/TC-patient",
      "resource": {
        "resourceType": "Patient",
        "id": "TC-patient",
        "meta": {
          "profile": [
            "http://fhir.ch/ig/ch-core/StructureDefinition/ch-core-patient-epr"
          ]
        },
        "identifier": [
          {
            "type": {
              "coding": [
                {
                  "system": "http://terminology.hl7.org/CodeSystem/v2-0203",
                  "code": "MR"
                }
              ]
            },
            "system": "urn:oid:1.2.3.4",
            "value": "12345678"
          }
        ],
        "name": [
          {
            "family": "Wegmueller",
            "given": [
              "Monika"
            ]
          }
        ],
        "telecom": [
          {
            "system": "phone",
            "value": "tel:+41.32.685.12.34",
            "use": "home"
          }
        ],
        "gender": "female",
        "birthDate": "1967-02-10",
        "address": [
          {
            "type": "both",
            "line": [
              "Leidensweg 10"
            ],
            "city": "Specimendorf",
            "postalCode": "9876",
            "country": "CH"
          }
        ]
      }
    },

    {
      "fullUrl": "http://test.fhir.ch/r4/Practitioner/TC-HCP2-C2",
      "resource": {
        "resourceType": "Practitioner",
        "id": "TC-HCP2-C2",
        "meta": {
          "profile": [
            "http://fhir.ch/ig/ch-core/StructureDefinition/ch-core-practitioner-epr"
          ]
        },
        "identifier": [
          {
            "system": "urn:oid:2.51.1.3",
            "value": "7601999999998"
          }
        ],
        "active": true,
        "name": [
          {
            "family": "Meier",
            "given": [
              "Gabriela"
            ],
            "prefix": [
              "Dr. med."
            ]
          }
        ],
        "telecom": [
          {
            "system": "phone",
            "value": "tel:+41.32.234.77.88",
            "use": "work"
          },
          {
            "system": "fax",
            "value": "fax:+41.32.234.77.89",
            "use": "work"
          },
          {
            "system": "email",
            "value": "mailto:leitung@praxis-gesund.ch",
            "use": "work"
          },
          {
            "system": "url",
            "value": "http://www.praxis-gesund.ch",
            "use": "work"
          }
        ],
        "address": [
          {
            "type": "physical",
            "line": [
              "Werthgasse 34"
            ],
            "city": "Bern",
            "state": "ZH",
            "postalCode": "3000",
            "country": "CH"
          }
        ]
      }
    },
    {
      "fullUrl": "http://test.fhir.ch/r4/Organization/TC-ORG2",
      "resource": {
        "resourceType": "Organization",
        "id": "TC-ORG2",
        "meta": {
          "profile": [
            "http://fhir.ch/ig/ch-core/StructureDefinition/ch-core-organization-epr"
          ]
        },
        "identifier": [
          {
            "system": "urn:oid:2.51.1.3",
            "value": "7601999999912"
          }
        ],
        "name": "Praxis Dr. G. Meier",
        "telecom": [
          {
            "system": "phone",
            "value": "tel:+41.32.234.77.88",
            "use": "work"
          },
          {
            "system": "fax",
            "value": "fax:+41.32.234.77.89",
            "use": "work"
          },
          {
            "system": "email",
            "value": "mailto:leitung@praxis-gesund.ch",
            "use": "work"
          },
          {
            "system": "url",
            "value": "http://www.praxis-gesund.ch",
            "use": "work"
          }
        ],
        "address": [
          {
            "line": [
              "Werthgasse 34"
            ],
            "city": "Bern",
            "state": "ZH",
            "postalCode": "3000",
            "country": "CH"
          }
        ]
      }
    },
    {
      "fullUrl": "http://test.fhir.ch/r4/PractitionerRole/TC-HCP2-ORG2-ROLE-performer",
      "resource": {
        "resourceType": "PractitionerRole",
        "id": "TC-HCP2-ORG2-ROLE-performer",
        "meta": {
          "profile": [
            "http://fhir.ch/ig/ch-core/StructureDefinition/ch-core-practitionerrole-epr"
          ]
        },
        "active": true,
        "practitioner": {
          "reference": "Practitioner/TC-HCP2-C2"
        },
        "organization": {
          "reference": "Organization/TC-ORG2"
        }
      }
    },

    {
      "fullUrl": "http://test.fhir.ch/r4/PractitionerRole/TC-HCP2-ORG2-ROLE-author",
      "resource": {
        "resourceType": "PractitionerRole",
        "id": "TC-HCP2-ORG2-ROLE-author",
        "meta": {
          "profile": [
            "http://fhir.ch/ig/ch-core/StructureDefinition/ch-core-practitionerrole-epr"
          ]
        },
        "active": true,
        "practitioner": {
          "reference": "Practitioner/TC-HCP2-C2"
        },
        "organization": {
          "reference": "Organization/TC-ORG2"
        }
      }
    },

    {
      "fullUrl": "http://test.fhir.ch/r4/Immunization/TCA02-IMMUN4-HCP2-ORG2-ROLE",
      "resource": {
        "resourceType": "Immunization",
        "id": "TCA02-IMMUN4-HCP2-ORG2-ROLE",
        "meta": {
          "profile": [
            "http://fhir.ch/ig/ch-vacd/StructureDefinition/ch-vacd-immunization"
          ]
        },
        "extension": [
          {
            "url": "http://fhir.ch/ig/ch-vacd/StructureDefinition/ch-vacd-ext-immunization-recorder-reference",
            "valueReference": {
              "reference": "PractitionerRole/TC-HCP2-ORG2-ROLE-author"
            }
          },
          {
            "url": "http://fhir.ch/ig/ch-vacd/StructureDefinition/ch-vacd-ext-immunization-medication-reference",
            "valueReference": {
              "reference": "Medication/TC-IMMUN-MEDIC-HAVRIX1440"
            }
          }
        ],

        "identifier": [
          {
            "system": "urn:oid:2.16.756.5.30.1.402.1.3.1.1.1",
            "value": "1829245678"
          }
        ],

        "status": "completed",
        "vaccineCode": {
          "coding": [
            {
              "system": "http://fhir.ch/ig/ch-vacd/CodeSystem/ch-vacd-swissmedic-cs",
              "code": "558",
              "display": "Havrix 1440"
            }
          ]
        },
        "patient": {
          "reference": "Patient/TC-patient"
        },
        "occurrenceDateTime": "2021-08-20",
        "recorded": "2021-08-20T00:00:00.390+02:00",
        "lotNumber": "AHAVB946A",
        "route": {
          "coding": [
            {
              "system": "http://standardterms.edqm.eu",
              "code": "20035000",
              "display": "Intramuscular use"
            }
          ]
        },
        "performer": [
          {
            "actor": {
              "reference": "PractitionerRole/TC-HCP2-ORG2-ROLE-performer"
            }
          }
        ],
        "protocolApplied": [
          {
            "targetDisease": [
              {
                "coding": [
                  {
                    "system": "http://snomed.info/sct",
                    "code": "40468003",
                    "display": "Viral hepatitis, type A (disorder)"
                  }
                ]
              }
            ],
            "doseNumberPositiveInt": 2
          }
        ]
      }
    },


    {
      "fullUrl": "http://test.fhir.ch/r4/Medication/TC-IMMUN-MEDIC-HAVRIX1440",
      "resource": {
        "resourceType": "Medication",
        "id": "TC-IMMUN-MEDIC-HAVRIX1440",
        "meta": {
          "profile": [
            "http://fhir.ch/ig/ch-vacd/StructureDefinition/ch-vacd-medication-for-immunization"
          ]
        },
        "code": {
          "coding": [
            {
              "system": "urn:oid:2.51.1.1",
              "code": "7680005580054",
              "display": "HAVRIX 1440 Inj Susp"
            }
          ],
          "text": "HAVRIX 1440 Inj Susp"
        },
        "status": "active",
        "manufacturer": {
          "reference": "Organization/TC-ORG-GSK"
        },
        "form": {
          "coding": [
            {
              "system": "urn:oid:0.4.0.127.0.16.1.1.2.1",
              "code": "11202000",
              "display": "Suspension for injection"
            }
          ]
        },
        "amount": {
          "numerator": {
            "value": 1,
            "unit": "milliliter",
            "system": "http://unitsofmeasure.org",
            "code": "mL"
          },
          "denominator": {
            "value": 1,
            "unit": "Syringe (unit of presentation)",
            "system": "http://snomed.info/sct",
            "code": "733020007"
          }
        },
        "ingredient": [
          {
            "itemCodeableConcept": {
              "coding": [
                {
                  "system": "http://snomed.info/sct",
                  "code": "106181007",
                  "display": "Immunologic substance (substance)"
                }
              ],
              "text": "Immunologic substance (substance)"
            }
          }
        ],
        "batch": {
          "lotNumber": "AHAVB946A"
        }
      }
    },

    {
      "fullUrl": "http://test.fhir.ch/r4/Organization/TC-ORG-GSK",
      "resource": {
        "resourceType": "Organization",
        "id": "TC-ORG-GSK",
        "meta": {
          "profile": [
            "http://fhir.ch/ig/ch-core/StructureDefinition/ch-core-organization"
          ]
        },
        "identifier": [
          {
            "system": "urn:oid:2.51.1.3",
            "value": "7601001000674"
          }
        ],
        "name": "GlaxoSmithKline AG",
        "telecom": [
          {
            "system": "phone",
            "value": "tel:+41 31 862 21 11",
            "use": "work"
          },
          {
            "system": "fax",
            "value": "fax:+41 31 862 22 00",
            "use": "work"
          },
          {
            "system": "email",
            "value": "mailto:swiss.info@gsk.com",
            "use": "work"
          },
          {
            "system": "url",
            "value": "https://www.gsk.com",
            "use": "work"
          }
        ],
        "address": [
          {
            "line": [
              "Talstrasse 3-5"
            ],
            "city": "Münchenbuchsee",
            "state": "BE",
            "postalCode": "3053",
            "country": "CH"
          }
        ]
      }
    }
  ]
}
